Folder: ChemAgents/data_for_paper/task 3

Note: data_for_paper/README.md
# data_for_paper

File: Lead halide perovskite (APbX3) quantum dots.csv
green,,yellow,,red,,blue,
wavelength/nm,PL intensity,wavelength/nm,PL intensity,wavelength/nm,PL intensity,wavelength/nm,PL intensity
400,416.507,400,17472.484,450,3215.271,380,47484.587
402,412.057,402,15408.797,452,3057.35,382,44475.422
404,396.332,404,13816.873,454,2903.316,384,41654.454
406,396.891,406,13135.323,456,2829.136,386,38966.417
408,396.797,408,12558.63,458,2757.828,388,35944.549
410,403.498,410,12079.807,460,2689.179,390,33131.742
412,396.773,412,11735.938,462,2653.124,392,31584.032
414,402.248,414,11340.487,464,2663.574,394,31624.11
416,402.544,416,11210.996,466,2660.323,396,32504.558
418,401.107,418,11023.671,468,2625.578,398,32111.124
420,407.243,420,10878.431,470,2595.934,400,29845.703
422,404.218,422,10558.639,472,2544.476,402,26267.787
424,402.772,424,10459.738,474,2539.858,404,23794.602
426,397.799,426,10345.797,476,2530.06,406,22367.157
428,394.609,428,10113.101,478,2485.789,408,21525.941
430,387.245,430,10104.784,480,2470.359,410,20804.232
432,388.992,432,9931.168,482,2436.688,412,20244.845
434,385.445,434,9887.401,484,2439.012,414,19662.45
436,381.922,436,9773.53,486,2438.812,416,19246.925
438,384.183,438,9653.342,488,2402.053,418,19186.788
440,381.256,440,9541.037,490,2401.783,420,18708.332
442,393.662,442,9499.242,492,2397.661,422,18547.651
444,373.121,444,9285.678,494,2366.475,424,18544.888
446,386.842,446,9242.093,496,2377.351,426,18767.578
448,379.011,448,9216.041,498,2368.757,428,19142.808
450,376.742,450,9198.146,500,2349.474,430,19752.804
452,377.36,452,9083.068,502,2390.052,432,21152.228
454,382.488,454,8906.972,504,2404.449,434,23581.351
456,386.629,456,9034.523,506,2372.286,436,26980.573
458,393.219,458,8881.464,508,2402.043,438,33099.748
460,405.393,460,8874.729,510,2378.347,440,42382.274
462,412.609,462,8876.297,512,2400.454,442,54604.737
464,448.281,464,8909.86,514,2409.436,444,76410.987
466,472.007,466,8835.074,516,2409.047,446,108904.626
468,503.168,468,8897.666,518,2408.802,448,151292.533
470,533.2,470,8657.139,520,2402.064,450,214346.908
472,630.953,472,8614.415,522,2431.325,452,304974.55
474,738.965,474,8443.04,524,2441.364,454,413983.003
476,953.289,476,8320.359,526,2452,456,556367.832
478,1218.446,478,8337.852,528,2424.717,458,727699.601
480,1600.725,480,8284.366,530,2404.08,460,894592.916
482,2170.642,482,8261.909,532,2409.076,462,1067579.788
484,3006.786,484,8185.178,534,2438.589,464,1206211.225
486,4109.189,486,8147.276,536,2449.608,466,1292200.793
488,5934.346,488,8155.005,538,2437.118,468,1328131.984
490,8426.286,490,8210.327,540,2420.761,470,1297120.586
492,11979.447,492,8330.918,542,2477.485,472,1225800.823
494,17139.424,494,8288.985,544,2450.865,474,1103562.317
496,24535.643,496,8450.448,546,2495.722,476,959296.049
498,34672.85,498,8589.71,548,2521.578,478,825771.969
500,49715.492,500,8755.985,550,2491.321,480,699069.891
502,70321.82,502,9032.183,552,2495.079,482,577799.186
504,97756.657,504,9439.08,554,2549.733,484,485397.988
506,141065.345,506,9892.82,556,2540.083,486,406924.754
508,197279.196,508,10546.948,558,2600.447,488,340160.183
510,274550.797,510,11312.93,560,2625.724,490,288337.358
512,386205.665,512,12593.237,562,2644.916,492,244015.626
514,543410.709,514,14078.376,564,2713.092,494,208216.059
516,726682.228,516,16053.473,566,2725.499,496,179021.221
518,986633.363,518,18721.145,568,2791.256,498,155315.797
520,1338644.775,520,21984.143,570,2794.244,500,134142.953
522,1723268.348,522,25739.26,572,2824.47,502,117453.583
524,2179803.327,524,30571.631,574,2862.657,504,104024.411
526,2761747.77,526,36880.889,576,2925.43,506,91117.216
528,3338869.014,528,43949.674,578,2985.946,508,81352.1
530,3873276.751,530,52680.98,580,3070.792,510,73635.519
532,4358054.656,532,62983.961,582,3172.897,512,65975.159
534,4647812.286,534,74092.486,584,3213.031,514,59710.898
536,4714542.697,536,87774.57,586,3316.341,516,54999.89
538,4542930.855,538,102705.6,588,3432.053,518,50549.913
540,4182645.619,540,119428.428,590,3567.964,520,46500.26
542,3726732.558,542,137396.697,592,3665.428,522,43371.569
544,3197687.721,544,158087.294,594,3793.688,524,40588.802
546,2684740.711,546,178880.563,596,3965.385,526,37914.297
548,2245980.563,548,199408.96,598,4175.442,528,35951.595
550,1829354.07,550,222404.68,600,4310.575,530,33750.641
552,1495853.603,552,244886.95,602,4512.11,532,32174.045
554,1235325.103,554,267177.92,604,4732.052,534,30726.836
556,1009466.46,556,291628.251,606,5032.09,536,29424.671
558,814693.355,558,313555.739,608,5344.928,538,28125.064
560,675417.506,560,332169.599,610,5636.375,540,27215.394
562,550556.457,562,349916.396,612,6009.987,542,26526.985
564,442506.174,564,364189.812,614,6505.96,544,26242.761
566,364497.869,566,373540.89,616,7049.868,546,27243.573
568,300154.126,568,380768.243,618,7724.982,548,25691.837
570,241396.649,570,381811.013,620,8433.99,550,23536.164
572,195327.937,572,381294.653,622,9321.631,552,22847.705
574,162047.435,574,376928.609,624,10416.264,554,22314.788
576,131201.308,576,370414.419,626,11505.287,556,21681.04
578,106827.247,578,361673.597,628,12871.744,558,21274.15
580,89199.541,580,352032.273,630,14345.499,560,20923.927
582,73855.821,582,340097.161,632,16018.114,562,20591.989
584,60783.915,584,324747.138,634,17809.727,564,20207.986
586,50318.508,586,310616.763,636,20176.81,566,19946.119
588,42688.906,588,293287.071,638,22052.26,568,19979.893
590,35246.906,590,273807.241,640,24358.773,570,19619.117
592,29543.968,592,254068.664,642,27391.102,572,19577.203
594,25078.524,594,233816.33,644,30437.844,574,19274.892
596,21268.256,596,212529.364,646,33290.308,576,18881.986
598,17672.022,598,192165.972,648,36927.453,578,18950.561
600,15233.897,600,174144.512,650,40889.222,580,18970.779
602,13018.168,602,155601.828,652,44516.448,582,18710.114
604,11111.619,604,139741.563,654,48933.289,584,18410.594
606,9558.819,606,125579.812,656,53485.186,586,18561.16
608,8243.41,608,113131.294,658,58291.655,588,18320.036
610,7124.768,610,101251,660,62810.111,590,18233.435
612,6239.675,612,92366.937,662,67943.683,592,18001.049
614,5492.111,614,83561.213,664,73051.191,594,18032.609
616,4855.955,616,75641.956,666,77733.38,596,18202.003
618,4330.599,618,69195.693,668,82580.419,598,18011.067
620,3902.526,620,63329.169,670,86904.658,600,18152.938
622,3493.597,622,57865.733,672,91484.796,602,18461.383
624,3257.074,624,53260.162,674,96006.98,604,18653.214
626,2894.862,626,49908.43,676,100487.563,606,18510.735
628,2677.717,628,46004.008,678,104841.436,608,18625.02
630,2490.548,630,42828.699,680,109334.98,610,18536.808
632,2322.22,632,39848.65,682,114533.283,612,18799.293
634,2135.739,634,37335.887,684,119691.202,614,18707.492
636,1951.05,636,35010.289,686,125234.157,616,18837.752
638,1799.441,638,32526.532,688,130163.119,618,18970.604
640,1686.672,640,30861.035,690,135549.37,620,18826.631
642,1590.646,642,28900.537,692,140800.775,622,19270.255
644,1520.851,644,27174.765,694,145445.917,624,19236.091
646,1436.491,646,26161.668,696,149367.765,626,19209.395
648,1415.409,648,24782.318,698,151264.736,628,19289.644
650,1357.467,650,23683.469,700,151231.514,630,19419.73
652,1291.171,652,23226.235,702,153193.143,632,19478.926
654,1245.364,654,22439.429,704,151240.381,634,19586.389
656,1207.001,656,22062.329,706,148208.175,636,19691.813
658,1199.643,658,22042.309,708,143331.172,638,19694.414
660,1175.779,660,21843.409,710,138328.72,640,19677.93
662,1162.281,662,21723.42,712,130313.145,642,19928.386
664,1134.518,664,21634.738,714,121943.058,644,19681.759
666,1132.884,666,21222.188,716,114253.566,646,19329.18
668,1097.06,668,21578.813,718,105104.47,648,19493.345
670,1089.543,670,21158.063,720,95761.72,650,19749.556
672,1081.261,672,20907.993,722,87237.029,652,20006.951
674,1065.109,674,20691.051,724,79580.401,654,20670.115
676,1054.043,676,20412.94,726,71484.183,656,21031.961
678,1057.924,678,20338.982,728,63515.863,658,21455.75
680,1031.588,680,20860.764,730,56956.365,660,21814.11
682,1012.696,682,20853.535,732,51248.983,662,22341.51
684,1029.927,684,21338.226,734,45910.183,664,22837.774
686,1029.476,686,22123.021,736,40923.578,666,23779.958
688,1052.04,688,23051.584,738,36993.109,668,24467.581
690,1002.304,690,24280.096,740,33408.736,670,25144.678
692,1055.669,692,25352.287,742,30132.223,672,25449.479
694,1073.355,694,26530.576,744,27432.656,674,25818.627
696,1113.245,696,28447.569,746,25291.64,676,26495.702
698,1125.731,698,30235.996,748,23461.608,678,27185.234
700,1163.659,700,31817.132,750,21775.653,680,27906.83
,,,,752,20484.15,682,28942.332
,,,,754,19468.01,684,29411.208
,,,,756,18595.409,686,31927.074
,,,,758,17737.492,688,34007.747
,,,,760,17437.517,690,35867.358
,,,,762,17331.311,692,39001.438
,,,,764,16942.559,694,41931.179
,,,,766,17114.869,696,45093.28
,,,,768,17377.445,698,48427.727
,,,,770,17678.004,700,52019.803
,,,,772,17928.781,,
,,,,774,18631.368,,
,,,,776,19761.879,,
,,,,778,21351.953,,
,,,,780,31571.483,,
,,,,782,81894.582,,
,,,,784,239458.237,,
,,,,786,582218.58,,
,,,,788,1200123.816,,
,,,,790,2071748.344,,
,,,,792,3250717.942,,
,,,,794,4584171.643,,
,,,,796,5941250.109,,
,,,,798,7510427.253,,
,,,,800,8933191.505,,